03/12/2020 13:54
Laser wavelength: -3
N to average: 1
Int: 0.05 s
LambdaCenter: 700.0 nm
grating: 0 
Int: 0.05 s
LambdaCenter: 800.0 nm
grating: 0 
 -------------
Grating 0=300 gr 1000 nm/mirror
Grating 1=900 gr 600 nm/600 gr 1000 nm
Grating 2=1800 gr 500 nm
2.021554	-4.000000	1.735448	3.000000
2.020991	-1.000000	1.735038	6.000000
2.020428	2.000000	1.734628	2.000000
2.019865	4.000000	1.734219	5.000000
2.019303	8.000000	1.733809	3.000000
2.018741	5.000000	1.733400	2.000000
2.018179	3.000000	1.732991	9.000000
2.017617	-3.000000	1.732583	7.000000
2.017056	5.000000	1.732174	12.000000
2.016495	-4.000000	1.731766	7.000000
2.015935	4.000000	1.731358	2.000000
2.015374	10.000000	1.730950	8.000000
2.014814	10.000000	1.730542	8.000000
2.014255	3.000000	1.730134	9.000000
2.013695	-6.000000	1.729727	-2.000000
2.013136	7.000000	1.729320	2.000000
2.012578	4.000000	1.728913	4.000000
2.012019	4.000000	1.728506	-1.000000
2.011461	6.000000	1.728099	5.000000
2.010903	-1.000000	1.727693	5.000000
2.010346	9.000000	1.727286	4.000000
2.009789	2.000000	1.726880	-5.000000
2.009232	2.000000	1.726475	11.000000
2.008675	3.000000	1.726069	-3.000000
2.008119	-4.000000	1.725663	6.000000
2.007563	9.000000	1.725258	4.000000
2.007007	0.000000	1.724853	6.000000
2.006452	-3.000000	1.724448	8.000000
2.005897	8.000000	1.724043	8.000000
2.005342	1.000000	1.723639	6.000000
2.004788	-4.000000	1.723234	4.000000
2.004234	0.000000	1.722830	4.000000
2.003680	0.000000	1.722426	5.000000
2.003127	-3.000000	1.722023	-4.000000
2.002573	7.000000	1.721619	-1.000000
2.002021	-2.000000	1.721216	7.000000
2.001468	1.000000	1.720812	8.000000
2.000916	1.000000	1.720409	3.000000
2.000364	6.000000	1.720006	5.000000
1.999812	-7.000000	1.719604	8.000000
1.999261	-5.000000	1.719201	12.000000
1.998710	5.000000	1.718799	11.000000
1.998159	-1.000000	1.718397	9.000000
1.997609	6.000000	1.717995	5.000000
1.997058	0.000000	1.717593	5.000000
1.996509	-4.000000	1.717192	1.000000
1.995959	-3.000000	1.716791	3.000000
1.995410	-4.000000	1.716389	3.000000
1.994861	-1.000000	1.715989	3.000000
1.994312	8.000000	1.715588	4.000000
1.993764	-6.000000	1.715187	6.000000
1.993216	-9.000000	1.714787	13.000000
1.992668	-2.000000	1.714387	5.000000
1.992121	1.000000	1.713987	13.000000
1.991574	0.000000	1.713587	3.000000
1.991027	-1.000000	1.713187	5.000000
1.990480	8.000000	1.712788	0.000000
1.989934	8.000000	1.712388	7.000000
1.989388	15.000000	1.711989	12.000000
1.988843	-3.000000	1.711590	6.000000
1.988297	4.000000	1.711192	7.000000
1.987752	4.000000	1.710793	2.000000
1.987208	4.000000	1.710395	9.000000
1.986663	6.000000	1.709997	15.000000
1.986119	3.000000	1.709599	13.000000
1.985575	3.000000	1.709201	3.000000
1.985032	7.000000	1.708803	10.000000
1.984489	0.000000	1.708406	6.000000
1.983946	4.000000	1.708009	0.000000
1.983403	9.000000	1.707612	10.000000
1.982861	6.000000	1.707215	8.000000
1.982319	1.000000	1.706818	0.000000
1.981777	-4.000000	1.706422	7.000000
1.981235	10.000000	1.706025	2.000000
1.980694	4.000000	1.705629	1.000000
1.980153	5.000000	1.705233	-7.000000
1.979613	7.000000	1.704837	-6.000000
1.979073	10.000000	1.704442	-3.000000
1.978533	8.000000	1.704046	7.000000
1.977993	5.000000	1.703651	0.000000
1.977454	2.000000	1.703256	2.000000
1.976914	2.000000	1.702861	8.000000
1.976376	20.000000	1.702467	8.000000
1.975837	9.000000	1.702072	11.000000
1.975299	11.000000	1.701678	4.000000
1.974761	15.000000	1.701284	4.000000
1.974223	17.000000	1.700890	14.000000
1.973686	19.000000	1.700496	-2.000000
1.973149	22.000000	1.700103	5.000000
1.972612	31.000000	1.699709	5.000000
1.972076	37.000000	1.699316	7.000000
1.971540	54.000000	1.698923	9.000000
1.971004	73.000000	1.698530	5.000000
1.970468	97.000000	1.698138	-3.000000
1.969933	123.000000	1.697745	1.000000
1.969398	178.000000	1.697353	11.000000
1.968863	249.000000	1.696961	3.000000
1.968329	337.000000	1.696569	17.000000
1.967795	484.000000	1.696177	9.000000
1.967261	694.000000	1.695785	4.000000
1.966727	980.000000	1.695394	7.000000
1.966194	1372.000000	1.695003	7.000000
1.965661	1913.000000	1.694612	7.000000
1.965128	2634.000000	1.694221	3.000000
1.964596	3477.000000	1.693830	5.000000
1.964064	4523.000000	1.693440	2.000000
1.963532	5732.000000	1.693050	8.000000
1.963001	7208.000000	1.692659	9.000000
1.962469	8751.000000	1.692269	2.000000
1.961938	10408.000000	1.691880	3.000000
1.961408	12053.000000	1.691490	10.000000
1.960877	13728.000000	1.691101	10.000000
1.960347	15208.000000	1.690711	1.000000
1.959817	16611.000000	1.690322	0.000000
1.959288	17836.000000	1.689934	6.000000
1.958759	18818.000000	1.689545	0.000000
1.958230	19363.000000	1.689156	2.000000
1.957701	19745.000000	1.688768	0.000000
1.957173	19771.000000	1.688380	-1.000000
1.956645	19641.000000	1.687992	4.000000
1.956117	19037.000000	1.687604	9.000000
1.955589	18322.000000	1.687217	9.000000
1.955062	17224.000000	1.686829	12.000000
1.954535	16239.000000	1.686442	3.000000
1.954008	15144.000000	1.686055	8.000000
1.953482	14063.000000	1.685668	8.000000
1.952956	13028.000000	1.685281	-4.000000
1.952430	11838.000000	1.684895	4.000000
1.951905	10670.000000	1.684508	3.000000
1.951379	9752.000000	1.684122	5.000000
1.950854	8923.000000	1.683736	-1.000000
1.950330	8095.000000	1.683350	8.000000
1.949805	7272.000000	1.682964	2.000000
1.949281	6570.000000	1.682579	8.000000
1.948757	5891.000000	1.682194	-2.000000
1.948234	5320.000000	1.681809	9.000000
1.947711	4850.000000	1.681424	0.000000
1.947188	4435.000000	1.681039	5.000000
1.946665	4046.000000	1.680654	12.000000
1.946142	3718.000000	1.680270	4.000000
1.945620	3441.000000	1.679885	9.000000
1.945098	3171.000000	1.679501	3.000000
1.944577	3054.000000	1.679117	4.000000
1.944055	2884.000000	1.678734	6.000000
1.943534	2712.000000	1.678350	0.000000
1.943014	2511.000000	1.677967	4.000000
1.942493	2409.000000	1.677584	5.000000
1.941973	2257.000000	1.677201	4.000000
1.941453	2088.000000	1.676818	11.000000
1.940933	1988.000000	1.676435	9.000000
1.940414	1900.000000	1.676053	3.000000
1.939895	1823.000000	1.675670	5.000000
1.939376	1689.000000	1.675288	-1.000000
1.938858	1610.000000	1.674906	1.000000
1.938339	1493.000000	1.674524	8.000000
1.937821	1406.000000	1.674143	9.000000
1.937304	1322.000000	1.673761	5.000000
1.936786	1248.000000	1.673380	10.000000
1.936269	1167.000000	1.672999	13.000000
1.935752	1077.000000	1.672618	6.000000
1.935236	1020.000000	1.672237	1.000000
1.934719	977.000000	1.671856	10.000000
1.934203	925.000000	1.671476	5.000000
1.933688	888.000000	1.671096	2.000000
1.933172	865.000000	1.670716	5.000000
1.932657	822.000000	1.670336	-4.000000
1.932142	781.000000	1.669956	5.000000
1.931627	760.000000	1.669577	3.000000
1.931113	714.000000	1.669197	3.000000
1.930599	691.000000	1.668818	-3.000000
1.930085	693.000000	1.668439	10.000000
1.929571	674.000000	1.668060	6.000000
1.929058	683.000000	1.667681	14.000000
1.928545	677.000000	1.667303	6.000000
1.928032	651.000000	1.666925	3.000000
1.927520	619.000000	1.666546	8.000000
1.927007	584.000000	1.666168	-1.000000
1.926496	542.000000	1.665790	2.000000
1.925984	516.000000	1.665413	9.000000
1.925472	479.000000	1.665035	17.000000
1.924961	447.000000	1.664658	13.000000
1.924451	416.000000	1.664281	5.000000
1.923940	394.000000	1.663904	7.000000
1.923430	356.000000	1.663527	-5.000000
1.922920	357.000000	1.663150	-1.000000
1.922410	329.000000	1.662774	3.000000
1.921900	332.000000	1.662398	12.000000
1.921391	332.000000	1.662022	6.000000
1.920882	284.000000	1.661646	12.000000
1.920373	254.000000	1.661270	12.000000
1.919865	234.000000	1.660894	6.000000
1.919357	194.000000	1.660519	3.000000
1.918849	193.000000	1.660143	5.000000
1.918341	169.000000	1.659768	-4.000000
1.917834	165.000000	1.659393	5.000000
1.917327	154.000000	1.659019	-1.000000
1.916820	153.000000	1.658644	10.000000
1.916314	118.000000	1.658270	9.000000
1.915807	120.000000	1.657895	9.000000
1.915301	117.000000	1.657521	6.000000
1.914796	95.000000	1.657147	7.000000
1.914290	107.000000	1.656774	2.000000
1.913785	94.000000	1.656400	9.000000
1.913280	97.000000	1.656027	16.000000
1.912775	86.000000	1.655653	5.000000
1.912271	70.000000	1.655280	4.000000
1.911767	79.000000	1.654907	6.000000
1.911263	85.000000	1.654535	2.000000
1.910759	63.000000	1.654162	2.000000
1.910256	74.000000	1.653790	1.000000
1.909753	70.000000	1.653417	12.000000
1.909250	77.000000	1.653045	4.000000
1.908748	67.000000	1.652673	-2.000000
1.908245	58.000000	1.652302	8.000000
1.907743	74.000000	1.651930	9.000000
1.907241	60.000000	1.651559	9.000000
1.906740	69.000000	1.651187	5.000000
1.906239	57.000000	1.650816	4.000000
1.905738	52.000000	1.650445	7.000000
1.905237	59.000000	1.650075	12.000000
1.904737	46.000000	1.649704	1.000000
1.904236	37.000000	1.649334	9.000000
1.903737	48.000000	1.648964	1.000000
1.903237	41.000000	1.648593	-2.000000
1.902738	36.000000	1.648224	7.000000
1.902238	37.000000	1.647854	7.000000
1.901740	30.000000	1.647484	9.000000
1.901241	35.000000	1.647115	4.000000
1.900743	34.000000	1.646746	1.000000
1.900244	27.000000	1.646376	19.000000
1.899747	33.000000	1.646008	9.000000
1.899249	28.000000	1.645639	10.000000
1.898752	28.000000	1.645270	4.000000
1.898255	30.000000	1.644902	3.000000
1.897758	22.000000	1.644534	8.000000
1.897261	15.000000	1.644166	10.000000
1.896765	24.000000	1.643798	10.000000
1.896269	25.000000	1.643430	10.000000
1.895773	20.000000	1.643062	4.000000
1.895278	28.000000	1.642695	11.000000
1.894783	20.000000	1.642328	4.000000
1.894288	15.000000	1.641960	4.000000
1.893793	20.000000	1.641594	7.000000
1.893299	19.000000	1.641227	14.000000
1.892804	16.000000	1.640860	7.000000
1.892311	14.000000	1.640494	7.000000
1.891817	12.000000	1.640127	11.000000
1.891323	16.000000	1.639761	1.000000
1.890830	22.000000	1.639395	3.000000
1.890337	17.000000	1.639030	16.000000
1.889845	14.000000	1.638664	7.000000
1.889352	20.000000	1.638298	3.000000
1.888860	19.000000	1.637933	5.000000
1.888368	21.000000	1.637568	4.000000
1.887877	14.000000	1.637203	6.000000
1.887385	15.000000	1.636838	-4.000000
1.886894	15.000000	1.636474	-3.000000
1.886403	12.000000	1.636109	8.000000
1.885913	5.000000	1.635745	7.000000
1.885423	13.000000	1.635381	10.000000
1.884932	8.000000	1.635017	3.000000
1.884443	5.000000	1.634653	9.000000
1.883953	18.000000	1.634289	14.000000
1.883464	15.000000	1.633926	-1.000000
1.882975	15.000000	1.633562	12.000000
1.882486	8.000000	1.633199	4.000000
1.881997	11.000000	1.632836	8.000000
1.881509	8.000000	1.632473	5.000000
1.881021	8.000000	1.632110	11.000000
1.880533	16.000000	1.631748	4.000000
1.880046	8.000000	1.631385	3.000000
1.879558	7.000000	1.631023	5.000000
1.879071	16.000000	1.630661	13.000000
1.878584	6.000000	1.630299	6.000000
1.878098	8.000000	1.629938	10.000000
1.877612	6.000000	1.629576	6.000000
1.877126	18.000000	1.629215	7.000000
1.876640	12.000000	1.628853	6.000000
1.876154	2.000000	1.628492	11.000000
1.875669	11.000000	1.628131	3.000000
1.875184	8.000000	1.627770	2.000000
1.874699	3.000000	1.627410	10.000000
1.874215	2.000000	1.627049	7.000000
1.873730	14.000000	1.626689	5.000000
1.873246	12.000000	1.626329	-1.000000
1.872763	5.000000	1.625969	14.000000
1.872279	6.000000	1.625609	8.000000
1.871796	5.000000	1.625249	1.000000
1.871313	2.000000	1.624890	5.000000
1.870830	2.000000	1.624531	10.000000
1.870347	6.000000	1.624171	5.000000
1.869865	8.000000	1.623812	-1.000000
1.869383	10.000000	1.623453	1.000000
1.868901	11.000000	1.623095	4.000000
1.868420	6.000000	1.622736	7.000000
1.867939	-1.000000	1.622378	7.000000
1.867458	4.000000	1.622020	12.000000
1.866977	1.000000	1.621662	12.000000
1.866496	8.000000	1.621304	0.000000
1.866016	6.000000	1.620946	3.000000
1.865536	1.000000	1.620588	6.000000
1.865056	11.000000	1.620231	6.000000
1.864577	6.000000	1.619873	4.000000
1.864097	1.000000	1.619516	12.000000
1.863618	-1.000000	1.619159	12.000000
1.863139	3.000000	1.618803	15.000000
1.862661	2.000000	1.618446	7.000000
1.862182	15.000000	1.618089	6.000000
1.861704	8.000000	1.617733	10.000000
1.861227	8.000000	1.617377	5.000000
1.860749	4.000000	1.617021	10.000000
1.860272	10.000000	1.616665	5.000000
1.859794	4.000000	1.616309	3.000000
1.859318	19.000000	1.615954	-7.000000
1.858841	7.000000	1.615598	4.000000
1.858365	-2.000000	1.615243	7.000000
1.857889	4.000000	1.614888	5.000000
1.857413	2.000000	1.614533	3.000000
1.856937	13.000000	1.614178	6.000000
1.856462	3.000000	1.613824	18.000000
1.855987	5.000000	1.613469	10.000000
1.855512	9.000000	1.613115	9.000000
1.855037	8.000000	1.612761	3.000000
1.854563	0.000000	1.612407	10.000000
1.854088	2.000000	1.612053	6.000000
1.853614	7.000000	1.611699	6.000000
1.853141	-1.000000	1.611346	3.000000
1.852667	2.000000	1.610992	10.000000
1.852194	9.000000	1.610639	6.000000
1.851721	3.000000	1.610286	3.000000
1.851248	13.000000	1.609933	3.000000
1.850776	6.000000	1.609580	7.000000
1.850304	1.000000	1.609228	10.000000
1.849832	4.000000	1.608875	9.000000
1.849360	-2.000000	1.608523	8.000000
1.848888	-2.000000	1.608171	11.000000
1.848417	0.000000	1.607819	8.000000
1.847946	3.000000	1.607467	19.000000
1.847475	0.000000	1.607115	11.000000
1.847005	13.000000	1.606764	1.000000
1.846534	1.000000	1.606412	10.000000
1.846064	1.000000	1.606061	5.000000
1.845594	1.000000	1.605710	9.000000
1.845125	3.000000	1.605359	5.000000
1.844656	10.000000	1.605008	6.000000
1.844186	6.000000	1.604658	9.000000
1.843718	5.000000	1.604307	8.000000
1.843249	2.000000	1.603957	2.000000
1.842780	0.000000	1.603607	5.000000
1.842312	4.000000	1.603257	8.000000
1.841844	2.000000	1.602907	4.000000
1.841377	4.000000	1.602557	13.000000
1.840909	8.000000	1.602208	15.000000
1.840442	2.000000	1.601858	3.000000
1.839975	6.000000	1.601509	10.000000
1.839508	4.000000	1.601160	3.000000
1.839042	10.000000	1.600811	4.000000
1.838575	5.000000	1.600462	9.000000
1.838109	7.000000	1.600114	16.000000
1.837644	1.000000	1.599765	1.000000
1.837178	9.000000	1.599417	16.000000
1.836713	6.000000	1.599069	12.000000
1.836248	3.000000	1.598721	14.000000
1.835783	-7.000000	1.598373	4.000000
1.835318	0.000000	1.598025	11.000000
1.834854	7.000000	1.597678	14.000000
1.834390	4.000000	1.597330	6.000000
1.833926	4.000000	1.596983	11.000000
1.833462	3.000000	1.596636	8.000000
1.832999	9.000000	1.596289	7.000000
1.832535	1.000000	1.595942	7.000000
1.832072	5.000000	1.595595	9.000000
1.831610	2.000000	1.595249	5.000000
1.831147	4.000000	1.594902	8.000000
1.830685	1.000000	1.594556	16.000000
1.830223	8.000000	1.594210	6.000000
1.829761	-1.000000	1.593864	4.000000
1.829299	4.000000	1.593519	10.000000
1.828838	0.000000	1.593173	19.000000
1.828377	-3.000000	1.592828	17.000000
1.827916	6.000000	1.592482	10.000000
1.827455	3.000000	1.592137	6.000000
1.826995	-6.000000	1.591792	14.000000
1.826535	13.000000	1.591447	3.000000
1.826075	7.000000	1.591102	3.000000
1.825615	14.000000	1.590758	16.000000
1.825156	-4.000000	1.590413	12.000000
1.824696	2.000000	1.590069	19.000000
1.824237	4.000000	1.589725	4.000000
1.823779	3.000000	1.589381	9.000000
1.823320	-2.000000	1.589037	2.000000
1.822862	-5.000000	1.588694	11.000000
1.822404	-9.000000	1.588350	14.000000
1.821946	-5.000000	1.588007	16.000000
1.821488	-5.000000	1.587664	17.000000
1.821031	1.000000	1.587321	12.000000
1.820574	5.000000	1.586978	13.000000
1.820117	9.000000	1.586635	18.000000
1.819660	3.000000	1.586292	24.000000
1.819203	5.000000	1.585950	-1.000000
1.818747	-4.000000	1.585607	22.000000
1.818291	3.000000	1.585265	15.000000
1.817835	3.000000	1.584923	5.000000
1.817380	4.000000	1.584581	10.000000
1.816924	8.000000	1.584240	9.000000
1.816469	2.000000	1.583898	15.000000
1.816014	1.000000	1.583556	11.000000
1.815560	0.000000	1.583215	14.000000
1.815105	9.000000	1.582874	17.000000
1.814651	-7.000000	1.582533	8.000000
1.814197	-7.000000	1.582192	13.000000
1.813743	3.000000	1.581851	19.000000
1.813290	3.000000	1.581511	10.000000
1.812836	0.000000	1.581170	22.000000
1.812383	0.000000	1.580830	7.000000
1.811930	17.000000	1.580490	25.000000
1.811478	5.000000	1.580150	18.000000
1.811025	-1.000000	1.579810	20.000000
1.810573	-6.000000	1.579471	11.000000
1.810121	-5.000000	1.579131	8.000000
1.809670	8.000000	1.578792	7.000000
1.809218	6.000000	1.578452	13.000000
1.808767	3.000000	1.578113	18.000000
1.808316	2.000000	1.577774	11.000000
1.807865	7.000000	1.577436	12.000000
1.807414	-3.000000	1.577097	14.000000
1.806964	-2.000000	1.576758	22.000000
1.806514	1.000000	1.576420	9.000000
1.806064	3.000000	1.576082	15.000000
1.805614	3.000000	1.575744	7.000000
1.805165	6.000000	1.575406	13.000000
1.804715	12.000000	1.575068	12.000000
1.804266	-7.000000	1.574730	14.000000
1.803818	3.000000	1.574393	18.000000
1.803369	7.000000	1.574055	18.000000
1.802921	3.000000	1.573718	21.000000
1.802472	-12.000000	1.573381	7.000000
1.802025	2.000000	1.573044	19.000000
1.801577	8.000000	1.572707	28.000000
1.801129	2.000000	1.572371	20.000000
1.800682	2.000000	1.572034	22.000000
1.800235	-2.000000	1.571698	18.000000
1.799788	5.000000	1.571362	22.000000
1.799342	0.000000	1.571026	30.000000
1.798895	2.000000	1.570690	23.000000
1.798449	9.000000	1.570354	20.000000
1.798003	-4.000000	1.570018	17.000000
1.797558	5.000000	1.569683	29.000000
1.797112	0.000000	1.569347	27.000000
1.796667	3.000000	1.569012	17.000000
1.796222	-5.000000	1.568677	24.000000
1.795777	2.000000	1.568342	23.000000
1.795332	7.000000	1.568008	26.000000
1.794888	6.000000	1.567673	29.000000
1.794444	-7.000000	1.567338	27.000000
1.794000	10.000000	1.567004	30.000000
1.793556	0.000000	1.566670	33.000000
1.793113	4.000000	1.566336	27.000000
1.792670	-2.000000	1.566002	33.000000
1.792226	1.000000	1.565668	24.000000
1.791784	-7.000000	1.565334	27.000000
1.791341	4.000000	1.565001	21.000000
1.790899	-4.000000	1.564668	31.000000
1.790456	-2.000000	1.564334	35.000000
1.790014	-4.000000	1.564001	31.000000
1.789573	0.000000	1.563668	35.000000
1.789131	6.000000	1.563336	34.000000
1.788690	0.000000	1.563003	32.000000
1.788249	-3.000000	1.562670	43.000000
1.787808	-4.000000	1.562338	43.000000
1.787367	4.000000	1.562006	44.000000
1.786927	3.000000	1.561674	46.000000
1.786487	4.000000	1.561342	49.000000
1.786047	3.000000	1.561010	51.000000
1.785607	-4.000000	1.560678	64.000000
1.785167	2.000000	1.560347	63.000000
1.784728	7.000000	1.560016	74.000000
1.784289	-2.000000	1.559684	82.000000
1.783850	1.000000	1.559353	94.000000
1.783411	4.000000	1.559022	119.000000
1.782973	-4.000000	1.558692	121.000000
1.782534	-7.000000	1.558361	149.000000
1.782096	0.000000	1.558030	164.000000
1.781658	12.000000	1.557700	203.000000
1.781221	6.000000	1.557370	240.000000
1.780783	6.000000	1.557040	283.000000
1.780346	3.000000	1.556710	325.000000
1.779909	8.000000	1.556380	386.000000
1.779472	4.000000	1.556050	491.000000
1.779036	0.000000	1.555721	602.000000
1.778600	6.000000	1.555391	757.000000
1.778163	3.000000	1.555062	909.000000
1.777727	6.000000	1.554733	1129.000000
1.777292	-6.000000	1.554404	1434.000000
1.776856	-6.000000	1.554075	1764.000000
1.776421	3.000000	1.553746	2238.000000
1.775986	4.000000	1.553418	2766.000000
1.775551	6.000000	1.553089	3519.000000
1.775116	4.000000	1.552761	4453.000000
1.774682	7.000000	1.552433	5569.000000
1.774248	11.000000	1.552105	7058.000000
1.773814	8.000000	1.551777	8863.000000
1.773380	14.000000	1.551449	11045.000000
1.772946	4.000000	1.551122	13731.000000
1.772513	1.000000	1.550794	17153.000000
1.772080	-6.000000	1.550467	21139.000000
1.771647	1.000000	1.550140	26059.000000
1.771214	4.000000	1.549812	31965.000000
1.770782	-6.000000	1.549486	39159.000000
1.770349	3.000000	1.549159	47482.000000
1.769917	1.000000	1.548832	57063.000000
1.769485	4.000000	1.548506	68589.000000
1.769054	-2.000000	1.548179	81483.000000
1.768622	8.000000	1.547853	95961.000000
1.768191	-1.000000	1.547527	111500.000000
1.767760	3.000000	1.547201	128710.000000
1.767329	3.000000	1.546875	147299.000000
1.766899	-1.000000	1.546550	166714.000000
1.766468	7.000000	1.546224	186882.000000
1.766038	11.000000	1.545899	207322.000000
1.765608	2.000000	1.545573	227139.000000
1.765178	3.000000	1.545248	246931.000000
1.764749	8.000000	1.544923	264439.000000
1.764319	-10.000000	1.544598	280136.000000
1.763890	12.000000	1.544274	292378.000000
1.763461	-5.000000	1.543949	303064.000000
1.763032	6.000000	1.543625	309904.000000
1.762604	-4.000000	1.543300	313063.000000
1.762176	5.000000	1.542976	313640.000000
1.761747	11.000000	1.542652	310212.000000
1.761320	2.000000	1.542328	303947.000000
1.760892	2.000000	1.542005	294853.000000
1.760464	-5.000000	1.541681	282757.000000
1.760037	2.000000	1.541357	268788.000000
1.759610	4.000000	1.541034	253435.000000
1.759183	1.000000	1.540711	236934.000000
1.758757	-1.000000	1.540388	219761.000000
1.758330	1.000000	1.540065	202495.000000
1.757904	4.000000	1.539742	185750.000000
1.757478	3.000000	1.539419	168730.000000
1.757052	3.000000	1.539097	153360.000000
1.756626	3.000000	1.538774	138129.000000
1.756201	11.000000	1.538452	123912.000000
1.755776	13.000000	1.538130	110380.000000
1.755351	3.000000	1.537808	98190.000000
1.754926	12.000000	1.537486	86873.000000
1.754501	4.000000	1.537164	76719.000000
1.754077	9.000000	1.536843	67394.000000
1.753653	7.000000	1.536521	59261.000000
1.753229	1.000000	1.536200	52185.000000
1.752805	6.000000	1.535879	45580.000000
1.752381	11.000000	1.535558	40150.000000
1.751958	-2.000000	1.535237	35153.000000
1.751535	-5.000000	1.534916	30757.000000
1.751112	0.000000	1.534595	26903.000000
1.750689	3.000000	1.534275	23442.000000
1.750267	-1.000000	1.533954	20519.000000
1.749844	0.000000	1.533634	17967.000000
1.749422	0.000000	1.533314	15673.000000
1.749000	2.000000	1.532994	13704.000000
1.748578	2.000000	1.532674	11984.000000
1.748157	-1.000000	1.532355	10550.000000
1.747736	1.000000	1.532035	9214.000000
1.747314	0.000000	1.531715	8163.000000
1.746893	9.000000	1.531396	7148.000000
1.746473	10.000000	1.531077	6322.000000
1.746052	3.000000	1.530758	5622.000000
1.745632	11.000000	1.530439	5022.000000
1.745212	7.000000	1.530120	4383.000000
1.744792	5.000000	1.529802	3903.000000
1.744372	12.000000	1.529483	3525.000000
1.743953	10.000000	1.529165	3160.000000
1.743533	-1.000000	1.528846	2792.000000
1.743114	5.000000	1.528528	2503.000000
1.742695	8.000000	1.528210	2292.000000
1.742277	10.000000	1.527892	2094.000000
1.741858	0.000000	1.527575	1846.000000
1.741440	9.000000	1.527257	1679.000000
1.741022	0.000000	1.526940	1525.000000
1.740604	6.000000	1.526622	1407.000000
1.740186	9.000000	1.526305	1261.000000
1.739769	2.000000	1.525988	1178.000000
1.739351	1.000000	1.525671	1049.000000
1.738934	4.000000	1.525354	988.000000
1.738517	11.000000	1.525038	888.000000
1.738101	-1.000000	1.524721	844.000000
1.737684	3.000000	1.524405	754.000000
1.737268	3.000000	1.524088	718.000000
1.736852	6.000000	1.523772	688.000000
1.736436	6.000000	1.523456	631.000000
1.736020	12.000000	1.523140	598.000000
1.735605	10.000000	1.522825	567.000000
1.735189	6.000000	1.522509	526.000000
1.734774	10.000000	1.522193	492.000000
1.734359	8.000000	1.521878	480.000000
1.733945	9.000000	1.521563	452.000000
1.733530	-1.000000	1.521248	441.000000
1.733116	7.000000	1.520933	417.000000
1.732702	3.000000	1.520618	414.000000
1.732288	-1.000000	1.520303	395.000000
1.731874	-2.000000	1.519989	384.000000
1.731461	4.000000	1.519674	391.000000
1.731047	1.000000	1.519360	388.000000
1.730634	0.000000	1.519046	369.000000
1.730221	9.000000	1.518732	378.000000
1.729808	-1.000000	1.518418	373.000000
1.729396	1.000000	1.518104	394.000000
1.728984	5.000000	1.517790	386.000000
1.728571	3.000000	1.517477	405.000000
1.728160	0.000000	1.517163	396.000000
1.727748	2.000000	1.516850	416.000000
1.727336	9.000000	1.516537	426.000000
1.726925	3.000000	1.516224	440.000000
1.726514	0.000000	1.515911	468.000000
1.726103	11.000000	1.515598	494.000000
1.725692	1.000000	1.515285	502.000000
1.725281	5.000000	1.514973	540.000000
1.724871	1.000000	1.514661	551.000000
1.724461	5.000000	1.514348	584.000000
1.724051	3.000000	1.514036	620.000000
1.723641	4.000000	1.513724	656.000000
1.723231	5.000000	1.513412	676.000000
1.722822	-2.000000	1.513101	715.000000
1.722413	9.000000	1.512789	750.000000
1.722004	9.000000	1.512478	787.000000
1.721595	9.000000	1.512166	840.000000
1.721186	4.000000	1.511855	884.000000
1.720778	3.000000	1.511544	923.000000
1.720370	2.000000	1.511233	964.000000
1.719962	2.000000	1.510922	1029.000000
1.719554	-11.000000	1.510611	1064.000000
1.719146	9.000000	1.510301	1121.000000
1.718739	5.000000	1.509990	1157.000000
1.718331	2.000000	1.509680	1196.000000
1.717924	10.000000	1.509370	1266.000000
1.717518	2.000000	1.509060	1317.000000
1.717111	0.000000	1.508750	1344.000000
1.716704	6.000000	1.508440	1390.000000
1.716298	10.000000	1.508130	1406.000000
1.715892	2.000000	1.507821	1416.000000
1.715486	8.000000	1.507511	1473.000000
1.715080	9.000000	1.507202	1475.000000
1.714675	2.000000	1.506893	1453.000000
1.714269	3.000000	1.506584	1499.000000
1.713864	5.000000	1.506275	1485.000000
1.713459	-4.000000	1.505966	1479.000000
1.713054	5.000000	1.505657	1478.000000
1.712650	2.000000	1.505349	1477.000000
1.712245	1.000000	1.505040	1455.000000
1.711841	11.000000	1.504732	1442.000000
1.711437	0.000000	1.504424	1430.000000
1.711033	4.000000	1.504116	1391.000000
1.710630	3.000000	1.503808	1389.000000
1.710226	4.000000	1.503500	1370.000000
1.709823	10.000000	1.503192	1342.000000
1.709420	11.000000	1.502885	1352.000000
1.709017	0.000000	1.502577	1350.000000
1.708615	9.000000	1.502270	1351.000000
1.708212	1.000000	1.501963	1368.000000
1.707810	-3.000000	1.501656	1327.000000
1.707408	13.000000	1.501349	1377.000000
1.707006	13.000000	1.501042	1367.000000
1.706604	5.000000	1.500736	1424.000000
1.706202	5.000000	1.500429	1418.000000
1.705801	-4.000000	1.500123	1469.000000
1.705400	12.000000	1.499816	1518.000000
1.704999	2.000000	1.499510	1537.000000
1.704598	18.000000	1.499204	1583.000000
1.704198	2.000000	1.498898	1607.000000
1.703797	0.000000	1.498592	1677.000000
1.703397	3.000000	1.498287	1723.000000
1.702997	2.000000	1.497981	1786.000000
1.702597	-2.000000	1.497676	1861.000000
1.702197	10.000000	1.497371	1932.000000
1.701798	0.000000	1.497065	2004.000000
1.701399	-1.000000	1.496760	2107.000000
1.701000	9.000000	1.496455	2222.000000
1.700601	6.000000	1.496151	2319.000000
1.700202	-3.000000	1.495846	2446.000000
1.699803	5.000000	1.495541	2592.000000
1.699405	8.000000	1.495237	2705.000000
1.699007	-4.000000	1.494933	2895.000000
1.698609	-4.000000	1.494629	3068.000000
1.698211	8.000000	1.494325	3288.000000
1.697814	2.000000	1.494021	3498.000000
1.697416	4.000000	1.493717	3681.000000
1.697019	2.000000	1.493413	3922.000000
1.696622	3.000000	1.493110	4227.000000
1.696225	1.000000	1.492806	4495.000000
1.695828	3.000000	1.492503	4771.000000
1.695432	-1.000000	1.492200	5100.000000
1.695036	1.000000	1.491897	5406.000000
1.694639	4.000000	1.491594	5820.000000
1.694244	10.000000	1.491291	6157.000000
1.693848	5.000000	1.490988	6542.000000
1.693452	7.000000	1.490686	6925.000000
1.693057	6.000000	1.490383	7282.000000
1.692662	14.000000	1.490081	7735.000000
1.692267	8.000000	1.489779	8092.000000
1.691872	5.000000	1.489477	8492.000000
1.691477	3.000000	1.489175	8859.000000
1.691083	0.000000	1.488873	9214.000000
1.690688	7.000000	1.488571	9617.000000
1.690294	13.000000	1.488269	9950.000000
1.689900	2.000000	1.487968	10232.000000
1.689507	-5.000000	1.487667	10551.000000
1.689113	0.000000	1.487365	10746.000000
1.688720	9.000000	1.487064	10981.000000
1.688327	7.000000	1.486763	11213.000000
1.687934	0.000000	1.486463	11253.000000
1.687541	6.000000	1.486162	11358.000000
1.687148	6.000000	1.485861	11568.000000
1.686756	6.000000	1.485561	11512.000000
1.686364	11.000000	1.485260	11576.000000
1.685971	11.000000	1.484960	11516.000000
1.685580	10.000000	1.484660	11509.000000
1.685188	18.000000	1.484360	11448.000000
1.684796	-1.000000	1.484060	11364.000000
1.684405	10.000000	1.483760	11217.000000
1.684014	2.000000	1.483461	11162.000000
1.683623	3.000000	1.483161	11031.000000
1.683232	12.000000	1.482862	10887.000000
1.682841	16.000000	1.482562	10739.000000
1.682451	0.000000	1.482263	10651.000000
1.682061	15.000000	1.481964	10400.000000
1.681671	5.000000	1.481665	10355.000000
1.681281	7.000000	1.481367	10147.000000
1.680891	13.000000	1.481068	9997.000000
1.680502	9.000000	1.480769	9817.000000
1.680112	1.000000	1.480471	9672.000000
1.679723	1.000000	1.480173	9527.000000
1.679334	-2.000000	1.479874	9358.000000
1.678945	5.000000	1.479576	9162.000000
1.678557	13.000000	1.479278	9075.000000
1.678168	9.000000	1.478980	8893.000000
1.677780	5.000000	1.478683	8666.000000
1.677392	4.000000	1.478385	8544.000000
1.677004	9.000000	1.478088	8369.000000
1.676616	7.000000	1.477790	8207.000000
1.676229	1.000000	1.477493	8124.000000
1.675841	10.000000	1.477196	7944.000000
1.675454	2.000000	1.476899	7804.000000
1.675067	11.000000	1.476602	7672.000000
1.674680	5.000000	1.476305	7552.000000
1.674293	3.000000	1.476009	7342.000000
1.673907	13.000000	1.475712	7217.000000
1.673521	9.000000	1.475416	7030.000000
1.673135	6.000000	1.475120	6915.000000
1.672749	2.000000	1.474823	6784.000000
1.672363	12.000000	1.474527	6605.000000
1.671977	-4.000000	1.474231	6469.000000
1.671592	10.000000	1.473936	6297.000000
1.671207	16.000000	1.473640	6216.000000
1.670822	4.000000	1.473344	6035.000000
1.670437	4.000000	1.473049	5958.000000
1.670052	8.000000	1.472754	5773.000000
1.669667	2.000000	1.472458	5650.000000
1.669283	11.000000	1.472163	5513.000000
1.668899	5.000000	1.471868	5387.000000
1.668515	5.000000	1.471573	5283.000000
1.668131	0.000000	1.471279	5140.000000
1.667747	9.000000	1.470984	4982.000000
1.667364	8.000000	1.470690	4878.000000
1.666981	3.000000	1.470395	4760.000000
1.666598	2.000000	1.470101	4638.000000
1.666215	1.000000	1.469807	4518.000000
1.665832	6.000000	1.469513	4379.000000
1.665449	4.000000	1.469219	4292.000000
1.665067	12.000000	1.468925	4120.000000
1.664685	11.000000	1.468631	4024.000000
1.664303	9.000000	1.468338	3916.000000
1.663921	8.000000	1.468044	3797.000000
1.663539	7.000000	1.467751	3712.000000
1.663157	13.000000	1.467458	3581.000000
1.662776	12.000000	1.467165	3519.000000
1.662395	19.000000	1.466872	3408.000000
1.662014	3.000000	1.466579	3313.000000
1.661633	19.000000	1.466286	3234.000000
1.661252	6.000000	1.465993	3119.000000
1.660872	1.000000	1.465701	3057.000000
1.660492	8.000000	1.465409	2937.000000
1.660112	21.000000	1.465116	2849.000000
1.659732	13.000000	1.464824	2749.000000
1.659352	13.000000	1.464532	2679.000000
1.658972	3.000000	1.464240	2615.000000
1.658593	18.000000	1.463948	2537.000000
1.658213	8.000000	1.463657	2447.000000
1.657834	17.000000	1.463365	2350.000000
1.657455	7.000000	1.463074	2302.000000
1.657077	5.000000	1.462782	2217.000000
1.656698	11.000000	1.462491	2136.000000
1.656320	-1.000000	1.462200	2077.000000
1.655941	9.000000	1.461909	2000.000000
1.655563	12.000000	1.461618	1957.000000
1.655186	0.000000	1.461327	1891.000000
1.654808	5.000000	1.461037	1834.000000
1.654430	17.000000	1.460746	1808.000000
1.654053	10.000000	1.460456	1743.000000
1.653676	4.000000	1.460165	1709.000000
1.653299	10.000000	1.459875	1639.000000
1.652922	5.000000	1.459585	1608.000000
1.652545	11.000000	1.459295	1557.000000
1.652169	4.000000	1.459005	1519.000000
1.651792	14.000000	1.458716	1462.000000
1.651416	4.000000	1.458426	1423.000000
1.651040	14.000000	1.458136	1369.000000
1.650664	8.000000	1.457847	1356.000000
1.650289	4.000000	1.457558	1315.000000
1.649913	11.000000	1.457269	1288.000000
1.649538	18.000000	1.456980	1258.000000
1.649163	8.000000	1.456691	1226.000000
1.648788	13.000000	1.456402	1200.000000
1.648413	17.000000	1.456113	1172.000000
1.648038	12.000000	1.455825	1174.000000
1.647664	5.000000	1.455536	1153.000000
1.647290	17.000000	1.455248	1134.000000
1.646915	5.000000	1.454960	1109.000000
1.646542	15.000000	1.454671	1094.000000
1.646168	19.000000	1.454383	1085.000000
1.645794	12.000000	1.454096	1052.000000
1.645421	15.000000	1.453808	1057.000000
1.645047	12.000000	1.453520	1044.000000
1.644674	7.000000	1.453233	1027.000000
1.644301	8.000000	1.452945	1018.000000
1.643929	10.000000	1.452658	1012.000000
1.643556	12.000000	1.452371	1008.000000
1.643184	13.000000	1.452083	989.000000
1.642811	12.000000	1.451796	986.000000
1.642439	18.000000	1.451510	966.000000
1.642067	14.000000	1.451223	973.000000
1.641696	15.000000	1.450936	946.000000
1.641324	10.000000	1.450650	947.000000
1.640953	2.000000	1.450363	924.000000
1.640581	12.000000	1.450077	915.000000
1.640210	9.000000	1.449791	891.000000
1.639839	18.000000	1.449505	899.000000
1.639469	7.000000	1.449219	872.000000
1.639098	12.000000	1.448933	846.000000
1.638728	13.000000	1.448647	860.000000
1.638357	4.000000	1.448361	819.000000
1.637987	17.000000	1.448076	820.000000
1.637617	5.000000	1.447791	798.000000
1.637248	14.000000	1.447505	784.000000
1.636878	13.000000	1.447220	788.000000
1.636509	22.000000	1.446935	758.000000
1.636140	13.000000	1.446650	736.000000
1.635770	10.000000	1.446365	732.000000
1.635402	18.000000	1.446081	708.000000
1.635033	20.000000	1.445796	686.000000
1.634664	12.000000	1.445511	670.000000
1.634296	16.000000	1.445227	672.000000
1.633928	12.000000	1.444943	642.000000
1.633560	10.000000	1.444659	651.000000
1.633192	23.000000	1.444374	614.000000
1.632824	5.000000	1.444091	612.000000
1.632456	4.000000	1.443807	609.000000
1.632089	7.000000	1.443523	598.000000
1.631722	21.000000	1.443239	562.000000
1.631355	17.000000	1.442956	554.000000
1.630988	13.000000	1.442672	562.000000
1.630621	7.000000	1.442389	532.000000
1.630254	22.000000	1.442106	528.000000
1.629888	10.000000	1.441823	513.000000
1.629522	17.000000	1.441540	502.000000
1.629156	7.000000	1.441257	479.000000
1.628790	18.000000	1.440974	490.000000
1.628424	10.000000	1.440692	471.000000
1.628058	20.000000	1.440409	455.000000
1.627693	22.000000	1.440127	439.000000
1.627328	10.000000	1.439845	433.000000
1.626962	16.000000	1.439563	410.000000
1.626598	14.000000	1.439280	418.000000
1.626233	12.000000	1.438999	404.000000
1.625868	11.000000	1.438717	401.000000
1.625504	17.000000	1.438435	395.000000
1.625139	17.000000	1.438153	381.000000
1.624775	10.000000	1.437872	367.000000
1.624411	24.000000	1.437590	356.000000
1.624048	21.000000	1.437309	355.000000
1.623684	12.000000	1.437028	343.000000
1.623320	21.000000	1.436747	338.000000
1.622957	7.000000	1.436466	321.000000
1.622594	17.000000	1.436185	325.000000
1.622231	21.000000	1.435904	309.000000
1.621868	16.000000	1.435624	307.000000
1.621505	14.000000	1.435343	301.000000
1.621143	19.000000	1.435063	302.000000
1.620781	14.000000	1.434783	297.000000
1.620418	18.000000	1.434502	284.000000
1.620056	20.000000	1.434222	285.000000
1.619695	22.000000	1.433942	266.000000
1.619333	12.000000	1.433662	267.000000
1.618971	13.000000	1.433383	275.000000
1.618610	12.000000	1.433103	260.000000
1.618249	27.000000	1.432824	243.000000
1.617888	20.000000	1.432544	238.000000
1.617527	18.000000	1.432265	235.000000
1.617166	18.000000	1.431986	233.000000
1.616806	24.000000	1.431706	225.000000
1.616445	21.000000	1.431427	226.000000
1.616085	15.000000	1.431149	217.000000
1.615725	24.000000	1.430870	214.000000
1.615365	15.000000	1.430591	215.000000
1.615005	7.000000	1.430313	196.000000
1.614646	22.000000	1.430034	197.000000
1.614286	6.000000	1.429756	201.000000
1.613927	14.000000	1.429478	193.000000
1.613568	8.000000	1.429199	197.000000
1.613209	18.000000	1.428921	175.000000
1.612850	25.000000	1.428644	172.000000
1.612491	23.000000	1.428366	179.000000
1.612133	15.000000	1.428088	171.000000
1.611775	31.000000	1.427811	164.000000
1.611416	15.000000	1.427533	167.000000
1.611058	26.000000	1.427256	165.000000
1.610701	28.000000	1.426978	165.000000
1.610343	17.000000	1.426701	152.000000
1.609985	16.000000	1.426424	159.000000
1.609628	24.000000	1.426147	156.000000
1.609271	6.000000	1.425870	144.000000
1.608914	9.000000	1.425594	163.000000
1.608557	7.000000	1.425317	142.000000
1.608200	15.000000	1.425041	137.000000
1.607844	17.000000	1.424764	134.000000
1.607487	19.000000	1.424488	133.000000
1.607131	16.000000	1.424212	133.000000
1.606775	17.000000	1.423936	137.000000
1.606419	30.000000	1.423660	132.000000
1.606063	12.000000	1.423384	128.000000
1.605707	16.000000	1.423108	120.000000
1.605352	24.000000	1.422832	120.000000
1.604997	33.000000	1.422557	125.000000
1.604641	29.000000	1.422281	117.000000
1.604286	28.000000	1.422006	121.000000
1.603932	26.000000	1.421731	125.000000
1.603577	20.000000	1.421456	110.000000
1.603222	23.000000	1.421181	121.000000
1.602868	19.000000	1.420906	116.000000
1.602514	28.000000	1.420631	122.000000
1.602160	20.000000	1.420356	116.000000
1.601806	17.000000	1.420082	116.000000
1.601452	27.000000	1.419807	110.000000
1.601099	24.000000	1.419533	111.000000
1.600745	17.000000	1.419259	116.000000
1.600392	27.000000	1.418985	101.000000
1.600039	10.000000	1.418711	99.000000
1.599686	18.000000	1.418437	104.000000
1.599333	25.000000	1.418163	107.000000
1.598980	23.000000	1.417889	104.000000
1.598628	16.000000	1.417615	100.000000
1.598275	34.000000	1.417342	100.000000
1.597923	24.000000	1.417068	103.000000
1.597571	24.000000	1.416795	112.000000
1.597219	24.000000	1.416522	104.000000
1.596868	18.000000	1.416249	98.000000
1.596516	24.000000	1.415976	90.000000
1.596165	18.000000	1.415703	102.000000
1.595813	23.000000	1.415430	87.000000
1.595462	18.000000	1.415157	92.000000
1.595111	30.000000	1.414885	96.000000
1.594761	39.000000	1.414612	94.000000
1.594410	34.000000	1.414340	100.000000
1.594059	25.000000	1.414068	101.000000
1.593709	22.000000	1.413796	94.000000
1.593359	19.000000	1.413524	96.000000
1.593009	40.000000	1.413252	93.000000
1.592659	32.000000	1.412980	89.000000
1.592309	26.000000	1.412708	88.000000
1.591960	33.000000	1.412436	88.000000
1.591610	26.000000	1.412165	85.000000
1.591261	23.000000	1.411893	92.000000
1.590912	34.000000	1.411622	92.000000
1.590563	24.000000	1.411351	83.000000
1.590214	36.000000	1.411080	89.000000
1.589866	29.000000	1.410809	86.000000
1.589517	34.000000	1.410538	79.000000
1.589169	36.000000	1.410267	80.000000
1.588821	31.000000	1.409996	82.000000
1.588473	28.000000	1.409726	82.000000
1.588125	44.000000	1.409455	81.000000
1.587777	34.000000	1.409185	78.000000
1.587429	33.000000	1.408915	82.000000
1.587082	44.000000	1.408644	74.000000
1.586735	35.000000	1.408374	78.000000
1.586388	40.000000	1.408104	78.000000
1.586041	30.000000	1.407835	76.000000
1.585694	33.000000	1.407565	68.000000
1.585347	39.000000	1.407295	80.000000
1.585001	32.000000	1.407026	74.000000
1.584654	38.000000	1.406756	77.000000
1.584308	26.000000	1.406487	74.000000
1.583962	45.000000	1.406218	81.000000
1.583616	32.000000	1.405948	70.000000
1.583270	44.000000	1.405679	76.000000
1.582925	38.000000	1.405410	78.000000
1.582579	37.000000	1.405142	74.000000
1.582234	34.000000	1.404873	59.000000
1.581889	34.000000	1.404604	63.000000
1.581544	37.000000	1.404336	73.000000
1.581199	43.000000	1.404067	60.000000
1.580854	41.000000	1.403799	57.000000
1.580510	43.000000	1.403531	64.000000
1.580165	50.000000	1.403263	71.000000
1.579821	45.000000	1.402995	54.000000
1.579477	44.000000	1.402727	72.000000
1.579133	56.000000	1.402459	63.000000
1.578789	56.000000	1.402191	60.000000
1.578446	44.000000	1.401924	59.000000
1.578102	54.000000	1.401656	58.000000
1.577759	52.000000	1.401389	63.000000
1.577415	43.000000	1.401121	65.000000
1.577072	39.000000	1.400854	62.000000
1.576729	47.000000	1.400587	53.000000
1.576387	55.000000	1.400320	65.000000
1.576044	49.000000	1.400053	61.000000
1.575702	50.000000	1.399786	53.000000
1.575359	40.000000	1.399520	61.000000
1.575017	53.000000	1.399253	56.000000
1.574675	46.000000	1.398987	60.000000
1.574333	54.000000	1.398720	67.000000
1.573992	56.000000	1.398454	50.000000
1.573650	54.000000	1.398188	57.000000
1.573309	63.000000	1.397922	62.000000
1.572967	56.000000	1.397656	62.000000
